! Center RA: 02 41 04.79850,  Dec: -08 15 20.75195 (2000.0)
! Established model.
! Flux (Jy) Radius (mas)  Theta (deg)  Major FWHM (mas)  Axial ratio   Phi (deg) T \
! Freq (Hz)     SpecIndex
  0.550000      0.00000      0.00000 
 0.0213123     0.100000     -90.0000 
0.00939195     0.141421     -135.000 
0.000521330     0.223607     -116.565 
0.000441163     0.316228     -108.435 
0.000110193     0.316228      71.5651 
3.26345e-05      1.20830      65.5560 
1.08677e-05     0.632456     -108.435 
6.47815e-05      1.20830     -114.444 
4.32268e-05      1.52315      66.8014 
2.14939e-05      1.61555      68.1986 
8.00677e-05      1.43178     -114.775 
0.000111462      1.93132      68.7495 
5.33531e-05      1.52315     -113.199 
3.18721e-05      2.15407      68.1986 
3.17902e-05      1.74642     -113.629 
0.000109790      2.24722      69.1455 
0.000131247      1.96977     -113.962 
4.19658e-05      2.46982      68.6294 
8.31970e-05      2.19317     -114.228 
0.000139274      2.65707      70.2011 
2.06529e-05      2.75136      70.9065 
4.12112e-05      2.41661     -114.444 
9.63427e-05      2.87924      69.6769 
8.16873e-05      2.50799     -113.499 
3.07238e-05      2.97321      70.3462 
0.000115452      3.06757      70.9744 
5.05740e-05      2.73130     -113.749 
7.06550e-05      3.19531      69.8637 
6.02208e-05      2.82312     -112.932 
8.98384e-05      3.38378      71.0296 
6.96346e-05      2.95466     -113.962 
0.000102402      3.47851      71.5651 
6.89843e-05      3.04631     -113.199 
4.91783e-05      3.60555      70.5600 
4.88904e-05      3.17805     -114.146 
0.000107082      3.70000      71.0754 
9.68519e-05      3.26956     -113.429 
9.98172e-05      3.79473      71.5651 
5.75324e-05      3.40147     -114.305 
0.000137078      3.88973      72.0309 
0.000160763      3.49285     -113.629 
6.63937e-05      4.01622      71.1139 
0.000103221      4.11096      71.5651 
0.000130006      3.71618     -113.806 
0.000199660      4.20595      71.9958 
0.000185299      4.30116      72.4076 
0.000156396      3.75766     -115.201 
0.000186162      3.84838     -114.567 
7.23436e-05      4.42719      71.5651 
0.000107629      3.93954     -113.962 
0.000160484      4.52217      71.9657 
4.44336e-05      4.03113     -113.385 
0.000202471      4.07185     -114.677 
7.03360e-05      4.61736      72.3499 
0.000173551      4.16293     -114.102 
0.000277611      4.71275      72.7185 
2.57216e-05      4.25441     -113.552 
0.000295734      4.29535     -114.775 
0.000146999      4.80833      73.0725 
8.43400e-05      4.83839      71.9395 
0.000166143      4.93356      72.2996 
2.50716e-05      4.38634     -114.228 
0.000280666      4.42832     -115.408 
0.000162861      5.02892      72.6460 
0.000254592      4.51885     -114.864 
0.000230538      5.12445      72.9795 
0.000204687      4.60977     -114.341 
0.000193605      5.22015      73.3008 
6.19521e-05      4.70106     -113.839 
0.000300354      4.74236     -114.944 
0.000411056      5.31601      73.6105 
0.000162761      4.83322     -114.444 
7.34225e-06      5.34509      72.5820 
0.000280331      5.41202      73.9092 
0.000446492      4.87545     -115.514 
0.000165583      5.44059      72.8973 
0.000279801      4.96588     -115.017 
0.000429136      5.53624      73.2016 
0.000335536      5.05668     -114.538 
0.000257653      5.63205      73.4956 
0.000303320      5.09902     -115.560 
0.000251154      5.72800      73.7798 
0.000521524      5.75674      72.8241 
0.000430699      5.18941     -115.084 
0.000497345      5.23259     -116.075 
0.000433379      5.85235      73.1132 
0.000330935      5.32259     -115.602 
0.000689375      5.94811      73.3930 
0.000376434      5.36656     -116.565 
0.000191372      5.41295     -115.145 
0.000470925      5.45619     -116.095 
0.000974409      6.04401      73.6640 
0.000645362      5.50091     -117.031 
0.000862546      5.59017     -116.565 
0.000469370      6.07289      72.7585 
0.000250833      6.14003      73.9264 
0.000705043      6.16847      73.0339 
0.000520438      5.63560     -117.474 
0.000619510      6.19839      72.1497 
0.000723584      5.77062     -117.897 
0.000936767      5.81808     -118.768 
0.000977567      6.29365      72.4287 
0.000740840      5.86686     -119.624 
0.000580277      6.32456      71.5651 
0.000366107      6.00333     -119.982 
0.000163570      6.02080     -122.106 
5.13447e-05      6.41950      71.8473 
7.13721e-05     0.223607      63.4349 
7.06622e-05     0.538517     -111.801 
6.99736e-05      1.30000      67.3801 
6.70305e-05      2.32594     -115.463 
6.60055e-05      2.64008     -114.624 
6.50399e-05      2.86356     -114.775 
6.41259e-05      3.08707     -114.905 
6.36649e-05      3.28938      70.4633 
6.32613e-05      3.22025     -115.769 
6.24396e-05      3.31059     -115.017 
6.20141e-05      3.57351      72.0721 
6.16489e-05      3.53412     -115.115 
6.08954e-05      3.62491     -114.444 
5.97931e-05      3.98497      72.4744 
5.90948e-05      4.08044      72.8973 
5.81213e-05      3.98121     -115.278 
5.65065e-05      4.39659      72.8015 
0.000111863      4.20476     -115.346 
0.000111207      4.49222      73.1786 
0.000108879      4.58803      73.5400 
5.35984e-05      4.68402      73.8866 
0.000104037      4.56180     -116.003 
0.000152887      4.90408      73.4127 
0.000152221      4.65188     -115.463 
9.94386e-05      5.00000      73.7398 
9.80544e-05      4.78539     -116.030 
0.000193181      5.09608      74.0546 
0.000140097      5.19230      74.3578 
0.000226030      5.00899     -116.053 
0.000136169      5.28867      74.6499 
8.42896e-05      5.14296     -116.565 
0.000244716      5.50818      74.1975 
0.000306061      5.60446      74.4759 
3.89769e-05      5.27731     -117.051 
0.000180290      5.70088      74.7449 
0.000349797      5.82409      74.0546 
3.16635e-05      5.54707     -117.951 
0.000424877      5.92030      74.3205 
0.000216753      5.68243     -118.369 
7.49799e-05      6.01664      74.5778 
0.000307289      5.91693     -120.466 
0.000154766      5.96825     -121.293 
1.54744e-05      6.05392     -120.801 
0.000215282      5.68507     -129.289 
0.000140556      5.37122      65.8209 
3.47143e-05      5.76281     -128.660 
0.000266685      5.82580     -129.428 
0.000234021      5.46260      66.2505 
0.000189171      5.55428      66.6660 
6.37174e-05      5.90339     -128.811 
0.000302047      5.96657     -129.560 
6.08328e-05      5.59464      65.7256 
5.97558e-05      5.64624      67.0679 
0.000256136      5.68595      66.1398 
5.72482e-05      6.04401     -128.956 
0.000323023      6.10737     -129.685 
0.000311303      5.77754      66.5410 
0.000100298      6.17171     -130.400 
0.000302700      6.24820     -129.806 
0.000345693      5.86941      66.9296 
0.000289721      6.31269     -130.503 
0.000245690      5.96154      67.3062 
1.93719e-05      6.37809     -131.186 
0.000306904      6.00083      66.4253 
0.000112760      6.38905     -129.920 
0.000273484      6.45368     -130.601 
0.000321625      6.09262      66.8014 
0.000238067      6.51920     -131.269 
! Tentative model.
! Flux (Jy) Radius (mas)  Theta (deg)  Major FWHM (mas)  Axial ratio   Phi (deg) T \
! Freq (Hz)     SpecIndex
0.000146540      6.09262      66.8014 
1.38145e-05      6.51920     -131.269 
0.000217452      6.58559     -131.923 
0.000515540      6.18466      67.1663 
0.000197962      6.65282     -132.563 
0.000160741      6.72086     -133.191 
0.000146377      6.78970     -133.807 
0.000535125      6.27694      67.5206 
9.89858e-05      6.85930     -134.409 
2.50871e-05      6.72681     -131.987 
3.86405e-05      6.92965     -135.000 
0.000178929      7.70065     -142.386 
5.83947e-06      6.66033     -131.348 
5.74161e-06      6.54370     -128.797 
1.65644e-05      6.48151     -128.108 
5.32321e-06      6.38201     -125.433 
1.03411e-05      6.32456     -124.695 
9.96010e-06      6.24340     -121.908 
9.55201e-06      6.19112     -121.122 
9.23518e-06      6.12944     -118.237 
4.47031e-06      6.08276     -117.408 
8.72411e-06      6.04152     -114.444 
4.22459e-06      6.00083     -113.575 
8.24660e-06      6.01664     -111.448 
3.99039e-06      5.98080     -110.556 
1.15965e-05      5.97746     -107.526 
7.37899e-06      5.99083     -104.500 
